 #This  is  an  example  of  input  file  for  the  program.  (2theta,  intensity)    
 #Convert  this  file  to  .xy  file  to  use  in  the  program  or  modify  the  program  to  read  other  file  types.    
1.0130786 2.28E+02
1.0165229 2.21E+02
1.0199673 2.26E+02
1.0234116 2.17E+02
1.0268561 2.02E+02
1.0303004 1.94E+02
1.0337447 2.06E+02
1.0371891 2.17E+02
1.0406334 2.18E+02
1.0440779 2.12E+02
1.0475222 2.05E+02
1.0509665 2.11E+02
1.0544108 2.13E+02
1.0578551 2.08E+02
1.0612997 2.14E+02
1.064744 2.09E+02
1.0681883 2.04E+02
1.0716326 2.08E+02
1.0750769 2.10E+02
1.0785215 2.17E+02
1.0819658 2.15E+02
1.08541 2.09E+02
1.0888544 2.05E+02
1.0922987 2.02E+02
1.0957431 1.98E+02
1.0991875 1.96E+02
1.1026318 2.00E+02
1.1060762 2.04E+02
1.1095206 2.07E+02
1.1129649 2.11E+02
1.1164093 2.09E+02
1.1198536 2.09E+02
1.123298 2.18E+02
1.1267424 2.21E+02
1.1301867 2.12E+02
1.133631 2.05E+02
1.1370753 2.08E+02
1.1405197 2.10E+02
1.1439642 2.07E+02
1.1474085 1.97E+02
1.1508528 2.03E+02
1.1542972 2.01E+02
1.1577415 1.94E+02
1.1611859 1.94E+02
1.1646302 1.93E+02
1.1680745 1.99E+02
1.1715189 2.03E+02
1.1749632 2.08E+02
1.1784077 2.00E+02
1.181852 1.97E+02
1.1852963 1.97E+02
1.1887407 1.98E+02
1.192185 2.03E+02
1.1956295 2.09E+02
1.1990738 2.10E+02
1.2025181 2.06E+02
1.2059625 2.04E+02
1.2094069 1.98E+02
1.2128512 2.02E+02
1.2162956 2.05E+02
1.2197399 2.07E+02
1.2231843 2.13E+02
1.2266287 2.11E+02
1.230073 2.05E+02
1.2335174 2.03E+02
1.2369617 2.03E+02
1.240406 2.03E+02
1.2438504 2.07E+02
1.2472947 2.08E+02
1.250739 2.08E+02
1.2541835 2.12E+02
1.2576278 2.19E+02
1.2610722 2.16E+02
1.2645165 2.09E+02
1.267961 2.13E+02
1.2714053 2.07E+02
1.2748497 2.00E+02
1.278294 2.02E+02
1.2817384 1.99E+02
1.2851826 1.98E+02
1.288627 2.00E+02
1.2920713 1.99E+02
1.2955158 1.99E+02
1.2989602 1.94E+02
1.3024044 1.96E+02
1.3058488 1.99E+02
1.3092932 2.02E+02
1.3127376 2.01E+02
1.3161819 2.02E+02
1.3196262 2.06E+02
1.3230705 2.04E+02
1.326515 2.02E+02
1.3299592 2.02E+02
1.3334037 1.98E+02
1.336848 1.97E+02
1.3402923 2.04E+02
1.3437366 2.05E+02
1.3471812 2.05E+02
1.3506255 2.06E+02
1.3540698 2.12E+02
1.3575141 2.07E+02
1.3609583 1.99E+02
1.3644028 1.94E+02
1.3678472 1.98E+02
1.3712915 2.04E+02
1.374736 2.13E+02
1.3781801 2.12E+02
1.3816246 2.17E+02
1.385069 2.18E+02
1.3885133 2.12E+02
1.3919578 2.08E+02
1.395402 2.03E+02
1.3988464 2.04E+02
1.4022907 2.07E+02
1.405735 2.11E+02
1.4091796 2.00E+02
1.4126238 1.99E+02
1.4160682 1.92E+02
1.4195125 1.87E+02
1.4229569 1.86E+02
1.4264014 1.86E+02
1.4298456 1.93E+02
1.4332899 2.02E+02
1.4367343 2.09E+02
1.4401785 2.10E+02
1.4436229 2.04E+02
1.4470674 2.09E+02
1.4505117 2.12E+02
1.4539561 2.13E+02
1.4574003 2.09E+02
1.4608449 2.01E+02
1.4642892 2.00E+02
1.4677335 2.02E+02
1.4711779 2.05E+02
1.4746221 2.04E+02
1.4780666 2.06E+02
1.4815109 2.10E+02
1.4849552 2.00E+02
1.4883997 1.97E+02
1.4918439 2.06E+02
1.4952884 2.05E+02
1.4987327 2.02E+02
1.5021771 2.06E+02
1.5056214 2.07E+02
1.5090657 2.04E+02
1.5125101 2.06E+02
1.5159545 2.10E+02
1.5193987 2.08E+02
1.5228431 2.08E+02
1.5262876 2.06E+02
1.5297319 2.00E+02
1.5331763 1.99E+02
1.5366207 2.05E+02
1.5400651 2.07E+02
1.5435094 2.09E+02
1.5469537 2.04E+02
1.5503981 2.07E+02
1.5538423 2.13E+02
1.5572867 2.17E+02
1.5607311 2.13E+02
1.5641755 2.10E+02
1.5676199 2.11E+02
1.5710641 2.16E+02
1.5745087 2.13E+02
1.5779529 2.11E+02
1.5813973 2.11E+02
1.5848416 2.11E+02
1.5882859 2.11E+02
1.5917302 2.18E+02
1.5951747 2.20E+02
1.5986189 2.20E+02
1.6020634 2.20E+02
1.6055077 2.22E+02
1.608952 2.26E+02
1.6123965 2.33E+02
1.6158409 2.42E+02
1.6192852 2.75E+02
1.6227295 3.45E+02
1.6261739 4.83E+02
1.629618 6.23E+02
1.6330625 7.39E+02
1.6365069 7.92E+02
1.6399512 8.00E+02
1.6433957 7.56E+02
1.6468399 6.58E+02
1.6502844 6.13E+02
1.6537287 6.05E+02
1.657173 6.58E+02
1.6606175 8.18E+02
1.6640617 1.05E+03
1.6675061 1.30E+03
1.6709504 1.40E+03
1.6743947 1.37E+03
1.6778393 1.18E+03
1.6812835 8.35E+02
1.6847279 5.51E+02
1.6881722 3.63E+02
1.6916167 2.94E+02
1.6950611 2.70E+02
1.6985053 2.51E+02
1.7019497 2.38E+02
1.705394 2.32E+02
1.7088382 2.26E+02
1.7122827 2.26E+02
1.7157271 2.20E+02
1.7191714 2.17E+02
1.7226158 2.15E+02
1.7260603 2.11E+02
1.7295046 2.06E+02
1.7329489 2.05E+02
1.7363932 2.12E+02
1.7398376 2.13E+02
1.7432818 2.05E+02
1.7467263 2.02E+02
1.7501706 2.02E+02
1.7536149 2.11E+02
1.7570595 2.11E+02
1.7605036 2.11E+02
1.7639482 2.10E+02
1.7673924 2.10E+02
1.7708368 2.08E+02
1.7742813 2.09E+02
1.7777255 2.04E+02
1.7811698 2.00E+02
1.7846142 2.02E+02
1.7880584 2.06E+02
1.7915028 2.09E+02
1.7949473 2.04E+02
1.7983918 1.99E+02
1.8018359 1.98E+02
1.8052804 2.06E+02
1.8087248 2.09E+02
1.8121691 2.07E+02
1.8156134 2.08E+02
1.8190578 2.09E+02
1.822502 2.01E+02
1.8259465 1.96E+02
1.8293908 2.04E+02
1.8328351 2.05E+02
1.8362796 2.13E+02
1.8397238 2.15E+02
1.8431684 2.08E+02
1.8466126 2.08E+02
1.850057 2.13E+02
1.8535013 2.09E+02
1.8569456 2.06E+02
1.8603899 2.02E+02
1.8638344 2.02E+02
1.8672786 2.03E+02
1.870723 2.01E+02
1.8741676 2.07E+02
1.8776116 2.05E+02
1.8810562 2.01E+02
1.8845006 2.06E+02
1.8879449 2.07E+02
1.8913893 2.06E+02
1.8948336 2.04E+02
1.898278 2.02E+02
1.9017222 2.05E+02
1.9051666 2.08E+02
1.9086109 2.03E+02
1.9120555 2.05E+02
1.9154996 2.05E+02
1.9189441 2.07E+02
1.9223886 2.06E+02
1.9258327 2.05E+02
1.9292772 2.04E+02
1.9327215 2.05E+02
1.9361658 2.08E+02
1.9396101 2.04E+02
1.9430547 2.01E+02
1.9464988 2.04E+02
1.9499433 2.06E+02
1.9533874 2.01E+02
1.9568322 1.96E+02
1.9602764 1.98E+02
1.9637208 1.98E+02
1.967165 1.97E+02
1.9706094 2.02E+02
1.9740537 2.04E+02
1.9774979 2.06E+02
1.9809427 2.06E+02
1.9843868 1.99E+02
1.9878314 2.04E+02
1.9912754 2.17E+02
1.99472 2.19E+02
1.9981641 2.15E+02
2.0016086 2.05E+02
2.005053 2.06E+02
2.0084972 2.06E+02
2.0119417 2.06E+02
2.0153859 2.10E+02
2.0188305 2.12E+02
2.0222745 2.07E+02
2.0257192 2.05E+02
2.0291634 2.09E+02
2.0326078 2.13E+02
2.036052 2.10E+02
2.0394964 2.09E+02
2.0429409 2.08E+02
2.046385 2.08E+02
2.0498295 2.01E+02
2.0532739 2.02E+02
2.0567186 2.05E+02
2.0601625 2.05E+02
2.063607 2.06E+02
2.0670512 2.06E+02
2.0704956 2.02E+02
2.07394 2.06E+02
2.0773845 2.08E+02
2.0808287 2.12E+02
2.0842731 2.09E+02
2.0877175 2.10E+02
2.0911617 2.12E+02
2.0946064 2.09E+02
2.0980506 2.05E+02
2.101495 2.06E+02
2.1049392 2.07E+02
2.1083837 2.06E+02
2.1118279 2.12E+02
2.1152723 2.13E+02
2.1187167 2.12E+02
2.1221611 2.13E+02
2.1256053 2.13E+02
2.1290498 2.15E+02
2.1324942 2.13E+02
2.1359384 2.12E+02
2.1393828 2.13E+02
2.142827 2.12E+02
2.1462717 2.18E+02
2.1497157 2.25E+02
2.1531603 2.21E+02
2.1566048 2.17E+02
2.160049 2.17E+02
2.1634934 2.15E+02
2.1669376 2.15E+02
2.170382 2.19E+02
2.1738262 2.21E+02
2.1772709 2.14E+02
2.1807148 2.17E+02
2.1841595 2.21E+02
2.1876035 2.17E+02
2.1910481 2.17E+02
2.1944926 2.22E+02
2.1979368 2.18E+02
2.2013812 2.16E+02
2.2048254 2.16E+02
2.2082698 2.15E+02
2.211714 2.14E+02
2.2151587 2.19E+02
2.2186029 2.24E+02
2.2220473 2.26E+02
2.2254915 2.22E+02
2.228936 2.20E+02
2.2323804 2.21E+02
2.2358246 2.28E+02
2.239269 2.29E+02
2.2427135 2.30E+02
2.2461576 2.31E+02
2.2496021 2.27E+02
2.2530468 2.33E+02
2.2564907 2.35E+02
2.2599351 2.35E+02
2.2633796 2.32E+02
2.266824 2.32E+02
2.2702682 2.40E+02
2.2737126 2.46E+02
2.2771571 2.49E+02
2.2806013 2.53E+02
2.2840457 2.52E+02
2.2874901 2.59E+02
2.2909346 2.74E+02
2.2943788 2.87E+02
2.2978232 2.91E+02
2.3012674 2.98E+02
2.3047118 3.12E+02
2.3081563 3.34E+02
2.3116007 3.57E+02
2.3150449 4.07E+02
2.3184893 5.30E+02
2.3219337 7.84E+02
2.3253779 1.29E+03
2.3288224 2.27E+03
2.3322666 3.49E+03
2.3357112 4.77E+03
2.3391552 5.79E+03
2.3425999 6.06E+03
2.3460443 5.76E+03
2.3494885 4.95E+03
2.3529329 4.22E+03
2.3563771 3.77E+03
2.3598216 3.63E+03
2.3632658 3.50E+03
2.3667104 3.21E+03
2.3701544 2.68E+03
2.3735991 1.96E+03
2.3770432 1.31E+03
2.3804877 8.17E+02
2.3839321 5.52E+02
2.3873763 4.20E+02
2.3908207 3.53E+02
2.3942649 3.16E+02
2.3977094 3.03E+02
2.4011538 2.93E+02
2.4045985 2.78E+02
2.4080424 2.72E+02
2.4114869 2.65E+02
2.4149311 2.56E+02
2.4183755 2.48E+02
2.4218199 2.44E+02
2.4252644 2.38E+02
2.4287086 2.33E+02
2.432153 2.32E+02
2.4355974 2.31E+02
2.4390416 2.36E+02
2.4424863 2.31E+02
2.4459305 2.29E+02
2.4493749 2.27E+02
2.4528191 2.29E+02
2.4562635 2.30E+02
2.459708 2.27E+02
2.4631522 2.23E+02
2.4665966 2.14E+02
2.470041 2.10E+02
2.4734852 2.09E+02
2.4769297 2.11E+02
2.4803741 2.17E+02
2.4838183 2.11E+02
2.4872627 2.07E+02
2.4907069 2.08E+02
2.4941516 2.08E+02
2.4975958 2.11E+02
2.5010402 2.05E+02
2.5044847 2.10E+02
2.5079288 2.17E+02
2.5113733 2.14E+02
2.5148175 2.09E+02
2.5182621 2.06E+02
2.5217061 2.11E+02
2.5251508 2.16E+02
2.5285947 2.12E+02
2.5320394 2.03E+02
2.5354838 2.05E+02
2.538928 2.01E+02
2.5423725 1.97E+02
2.5458167 1.96E+02
2.5492611 1.96E+02
2.5527053 1.96E+02
2.55615 2.02E+02
2.5595942 2.04E+02
2.5630386 2.05E+02
2.5664825 2.01E+02
2.5699272 1.96E+02
2.5733714 1.91E+02
2.5768158 1.88E+02
2.5802603 1.89E+02
2.5837047 1.96E+02
2.5871489 1.97E+02
2.5905931 1.98E+02
2.5940378 2.03E+02
2.597482 2.08E+02
2.6009266 2.02E+02
2.6043708 1.98E+02
2.6078153 1.99E+02
2.6112592 2.02E+02
2.6147037 2.03E+02
2.6181483 2.03E+02
2.6215925 2.06E+02
2.6250367 2.06E+02
2.6284814 2.03E+02
2.6319258 1.96E+02
2.6353698 1.94E+02
2.6388144 1.97E+02
2.6422586 1.92E+02
2.6457031 1.92E+02
2.6491473 1.91E+02
2.6525919 1.93E+02
2.6560361 1.92E+02
2.6594803 1.92E+02
2.662925 1.92E+02
2.6663692 1.97E+02
2.6698136 1.97E+02
2.6732578 1.98E+02
2.6767025 1.98E+02
2.6801465 1.98E+02
2.6835909 1.97E+02
2.6870351 1.99E+02
2.6904798 1.92E+02
2.693924 1.90E+02
2.6973684 1.96E+02
2.7008128 1.95E+02
2.704257 1.92E+02
2.7077014 1.94E+02
2.7111456 1.94E+02
2.7145903 1.96E+02
2.7180345 1.99E+02
2.7214789 1.98E+02
2.7249229 1.94E+02
2.7283676 1.87E+02
2.731812 1.88E+02
2.7352562 1.88E+02
2.7387006 1.91E+02
2.7421451 1.99E+02
2.7455893 2.02E+02
2.7490335 1.97E+02
2.7524781 1.90E+02
2.7559223 1.91E+02
2.7593668 1.93E+02
2.7628112 1.96E+02
2.7662556 1.94E+02
2.7696998 1.95E+02
2.773144 1.95E+02
2.7765887 1.97E+02
2.7800329 1.94E+02
2.7834771 1.92E+02
2.7869217 1.95E+02
2.7903662 1.95E+02
2.7938101 1.97E+02
2.7972548 2.04E+02
2.800699 2.04E+02
2.8041434 2.01E+02
2.8075876 1.97E+02
2.8110323 2.00E+02
2.8144767 2.01E+02
2.8179207 1.99E+02
2.8213654 2.00E+02
2.8248096 1.97E+02
2.828254 2.03E+02
2.8316982 2.09E+02
2.8351429 2.11E+02
2.8385868 2.14E+02
2.8420312 2.13E+02
2.8454754 2.22E+02
2.8489201 2.44E+02
2.8523645 2.67E+02
2.8558087 3.12E+02
2.8592534 3.96E+02
2.8626974 5.60E+02
2.8661418 7.93E+02
2.869586 1.11E+03
2.8730307 1.40E+03
2.8764749 1.56E+03
2.8799193 1.56E+03
2.8833632 1.37E+03
2.8868079 1.08E+03
2.8902524 7.56E+02
2.8936965 5.02E+02
2.8971412 3.57E+02
2.9005854 2.73E+02
2.9040298 2.45E+02
2.9074738 2.34E+02
2.9109185 2.25E+02
2.9143627 2.18E+02
2.9178071 2.16E+02
2.9212511 2.12E+02
2.924696 2.13E+02
2.9281399 2.10E+02
2.9315844 2.09E+02
2.935029 2.06E+02
2.9384732 2.09E+02
2.9419179 2.10E+02
2.9453621 2.09E+02
2.9488065 2.09E+02
2.9522505 2.10E+02
2.9556949 2.12E+02
2.9591393 2.15E+02
2.9625838 2.09E+02
2.9660277 2.05E+02
2.9694722 2.01E+02
2.9729171 1.98E+02
2.976361 1.99E+02
2.9798057 1.98E+02
2.9832499 1.98E+02
2.9866943 1.96E+02
2.9901383 1.96E+02
2.9935832 2.03E+02
2.9970272 2.04E+02
3.0004716 2.00E+02
3.0039158 1.98E+02
3.0073605 1.97E+02
3.0108049 1.96E+02
3.0142488 1.99E+02
3.0176935 2.02E+02
3.0211377 2.03E+02
3.0245821 1.98E+02
3.0280263 1.93E+02
3.031471 1.94E+02
3.034915 1.94E+02
3.0383594 1.94E+02
3.0418036 1.96E+02
3.0452483 1.98E+02
3.0486927 2.00E+02
3.0521369 2.05E+02
3.0555816 2.01E+02
3.0590255 1.98E+02
3.06247 1.91E+02
3.0659142 1.96E+02
3.0693588 1.98E+02
3.072803 1.97E+02
3.0762475 1.95E+02
3.0796914 1.94E+02
3.0831361 1.98E+02
3.0865805 1.96E+02
3.0900247 1.94E+02
3.0934694 1.94E+02
3.0969136 1.95E+02
3.1003582 1.98E+02
3.103802 1.96E+02
3.1072466 1.95E+02
3.1106908 1.96E+02
3.1141353 1.96E+02
3.1175797 1.98E+02
3.1210241 1.96E+02
3.1244688 1.95E+02
3.1279125 1.95E+02
3.1313572 1.92E+02
3.1348014 1.91E+02
3.1382461 1.91E+02
3.1416903 1.93E+02
3.1451347 1.99E+02
3.1485786 1.99E+02
3.1520231 1.98E+02
3.1554675 1.96E+02
3.1589119 1.96E+02
3.1623566 1.93E+02
3.1658008 1.96E+02
3.1692452 1.96E+02
3.1726892 1.98E+02
3.1761339 1.95E+02
3.1795781 1.92E+02
3.1830225 1.97E+02
3.1864667 2.01E+02
3.1899114 2.04E+02
3.1933553 2.05E+02
3.1967998 2.04E+02
3.2002444 2.04E+02
3.2036886 2.03E+02
3.2071331 2.04E+02
3.2105772 2.04E+02
3.2140219 2.04E+02
3.2174659 2.02E+02
3.2209103 2.00E+02
3.2243545 2.00E+02
3.2277992 2.01E+02
3.2312434 2.02E+02
3.2346878 2.10E+02
3.2381325 2.13E+02
3.2415764 2.14E+02
3.2450209 2.23E+02
3.2484651 2.40E+02
3.2519097 2.60E+02
3.2553539 3.03E+02
3.2587984 3.71E+02
3.2622423 4.68E+02
3.265687 5.58E+02
3.2691312 6.36E+02
3.2725756 6.81E+02
3.2760203 6.70E+02
3.2794645 6.22E+02
3.2829092 5.55E+02
3.2863529 5.04E+02
3.2897975 4.53E+02
3.2932417 4.11E+02
3.2966864 3.93E+02
3.3001306 3.82E+02
3.303575 3.70E+02
3.307019 3.66E+02
3.3104634 3.75E+02
3.3139081 3.90E+02
3.3173523 4.11E+02
3.320797 4.44E+02
3.3242412 5.06E+02
3.3276856 5.97E+02
3.3311296 7.40E+02
3.3345742 9.51E+02
3.3380184 1.25E+03
3.3414629 1.49E+03
3.344907 1.64E+03
3.3483517 1.61E+03
3.3517962 1.41E+03
3.3552401 1.12E+03
3.3586848 7.85E+02
3.362129 5.52E+02
3.3655734 4.04E+02
3.3690176 3.13E+02
3.3724623 2.73E+02
3.3759062 2.53E+02
3.3793507 2.45E+02
3.3827949 2.36E+02
3.3862395 2.29E+02
3.389684 2.24E+02
3.3931282 2.16E+02
3.3965728 2.15E+02
3.4000168 2.13E+02
3.4034612 2.10E+02
3.4069054 2.10E+02
3.4103501 2.13E+02
3.4137943 2.10E+02
3.4172387 2.08E+02
3.4206827 2.02E+02
3.4241273 2.00E+02
3.4275718 2.03E+02
3.431016 2.03E+02
3.4344606 2.01E+02
3.4379048 2.05E+02
3.4413495 2.04E+02
3.4447932 2.01E+02
3.4482379 2.02E+02
3.4516821 2.04E+02
3.4551265 2.08E+02
3.458571 2.08E+02
3.4620154 2.09E+02
3.4654601 2.07E+02
3.4689038 2.06E+02
3.4723485 2.09E+02
3.4757926 2.09E+02
3.4792373 1.99E+02
3.4826815 1.94E+02
3.4861259 1.99E+02
3.4895699 2.06E+02
3.4930146 2.03E+02
3.4964588 2.04E+02
3.4999032 2.05E+02
3.5033479 2.00E+02
3.5067921 1.98E+02
3.5102365 1.98E+02
3.5136805 1.99E+02
3.5171251 1.98E+02
3.5205693 1.99E+02
3.5240138 2.03E+02
3.527458 2.03E+02
3.5309026 2.05E+02
3.5343466 2.09E+02
3.537791 2.08E+02
3.5412352 2.10E+02
3.5446799 2.12E+02
3.5481243 2.08E+02
3.5515683 2.03E+02
3.5550132 2.05E+02
3.5584571 2.07E+02
3.5619016 2.11E+02
3.5653458 2.09E+02
3.5687904 2.09E+02
3.5722344 2.08E+02
3.5756791 2.05E+02
3.579123 2.03E+02
3.5825677 2.04E+02
3.5860121 2.08E+02
3.5894563 2.08E+02
3.592901 2.05E+02
3.5963449 2.05E+02
3.5997894 2.07E+02
3.6032336 2.09E+02
3.6066782 2.10E+02
3.6101224 2.10E+02
3.6135669 2.12E+02
3.6170108 2.13E+02
3.6204555 2.12E+02
3.6239004 2.12E+02
3.6273441 2.14E+02
3.6307888 2.15E+02
3.634233 2.18E+02
3.6376777 2.23E+02
3.6411214 2.24E+02
3.6445661 2.29E+02
3.6480103 2.30E+02
3.6514547 2.33E+02
3.6548991 2.50E+02
3.6583436 2.81E+02
3.6617882 3.34E+02
3.6652319 4.00E+02
3.6686766 4.59E+02
3.6721208 5.16E+02
3.6755655 5.42E+02
3.6790097 5.37E+02
3.6824541 5.06E+02
3.6858981 4.59E+02
3.6893427 4.19E+02
3.6927869 3.88E+02
3.6962314 3.67E+02
3.699676 3.57E+02
3.7031202 3.54E+02
3.7065647 3.62E+02
3.7100086 3.85E+02
3.7134533 4.16E+02
3.7168975 4.59E+02
3.7203419 5.04E+02
3.7237861 5.40E+02
3.7272308 5.61E+02
3.7306747 5.72E+02
3.7341192 5.64E+02
3.7375638 5.43E+02
3.741008 5.10E+02
3.7444525 4.62E+02
3.7478967 4.01E+02
3.7513413 3.38E+02
3.7547853 2.90E+02
3.7582297 2.57E+02
3.7616739 2.41E+02
3.7651186 2.34E+02
3.7685628 2.29E+02
3.7720072 2.23E+02
3.7754519 2.22E+02
3.7788959 2.20E+02
3.7823403 2.21E+02
3.7857845 2.21E+02
3.7892292 2.17E+02
3.7926733 2.17E+02
3.7961178 2.18E+02
3.7995617 2.13E+02
3.8030064 2.10E+02
3.8064506 2.07E+02
3.809895 2.07E+02
3.8133397 2.06E+02
3.8167839 2.11E+02
3.8202286 2.16E+02
3.8236723 2.17E+02
3.827117 2.15E+02
3.8305612 2.14E+02
3.8340058 2.14E+02
3.83745 2.16E+02
3.8408945 2.11E+02
3.8443384 2.14E+02
3.8477829 2.15E+02
3.8512275 2.16E+02
3.8546717 2.15E+02
3.8581164 2.13E+02
3.8615606 2.14E+02
3.865005 2.16E+02
3.868449 2.16E+02
3.8718936 2.15E+02
3.8753378 2.15E+02
3.8787823 2.16E+02
3.8822265 2.15E+02
3.8856711 2.14E+02
3.8891156 2.16E+02
3.8925595 2.14E+02
3.8960042 2.12E+02
3.8994484 2.19E+02
3.9028928 2.17E+02
3.906337 2.15E+02
3.9097817 2.19E+02
3.9132257 2.20E+02
3.9166701 2.19E+02
3.9201143 2.16E+02
3.923559 2.16E+02
3.9270034 2.12E+02
3.9304476 2.15E+02
3.9338923 2.18E+02
3.9373362 2.17E+02
3.9407806 2.14E+02
3.9442248 2.14E+02
3.9476695 2.18E+02
3.9511137 2.18E+02
3.9545581 2.21E+02
3.9580021 2.21E+02
3.9614468 2.23E+02
3.9648912 2.23E+02
3.9683354 2.23E+02
3.9717801 2.28E+02
3.9752243 2.33E+02
3.9786689 2.37E+02
3.9821126 2.39E+02
3.9855573 2.41E+02
3.9890015 2.46E+02
3.9924459 2.47E+02
3.9958904 2.44E+02
3.9993348 2.46E+02
4.0027795 2.51E+02
4.0062232 2.58E+02
4.0096679 2.66E+02
4.0131121 2.80E+02
4.0165567 3.11E+02
4.0200009 3.74E+02
4.0234456 4.85E+02
4.0268893 6.28E+02
4.030334 7.91E+02
4.0337782 9.59E+02
4.0372229 1.06E+03
4.0406671 1.10E+03
4.0441113 1.08E+03
4.0475559 1.01E+03
4.0510001 9.43E+02
4.0544443 8.83E+02
4.0578885 8.54E+02
4.0613332 8.60E+02
4.0647774 8.97E+02
4.068222 1.02E+03
4.0716658 1.21E+03
4.0751104 1.47E+03
4.0785551 1.82E+03
4.0819993 2.07E+03
4.085444 2.18E+03
4.0888882 2.04E+03
4.0923324 1.72E+03
4.0957766 1.31E+03
4.0992212 9.09E+02
4.1026654 6.32E+02
4.1061096 4.59E+02
4.1095543 3.63E+02
4.1129985 3.16E+02
4.1164427 2.87E+02
4.1198869 2.63E+02
4.1233315 2.54E+02
4.1267757 2.54E+02
4.1302204 2.60E+02
4.1336641 2.55E+02
4.1371093 2.47E+02
4.140553 2.42E+02
4.1439977 2.40E+02
4.1474419 2.43E+02
4.1508865 2.45E+02
4.1543303 2.42E+02
4.1577754 2.33E+02
4.1612196 2.26E+02
4.1646638 2.24E+02
4.168108 2.21E+02
4.1715527 2.21E+02
4.1749969 2.21E+02
4.178441 2.20E+02
4.1818852 2.22E+02
4.1853299 2.22E+02
4.1887741 2.22E+02
4.1922183 2.18E+02
4.195663 2.17E+02
4.1991076 2.20E+02
4.2025514 2.17E+02
4.2059965 2.16E+02
4.2094402 2.10E+02
4.2128849 2.05E+02
4.2163291 2.08E+02
4.2197738 2.18E+02
4.2232175 2.17E+02
4.2266622 2.14E+02
4.2301064 2.10E+02
4.233551 2.07E+02
4.2369952 2.09E+02
4.2404394 2.08E+02
4.2438841 2.08E+02
4.2473283 2.13E+02
4.2507725 2.16E+02
4.2542167 2.20E+02
4.2576613 2.20E+02
4.2611055 2.17E+02
4.2645502 2.16E+02
4.2679939 2.19E+02
4.2714386 2.16E+02
4.2748833 2.16E+02
4.2783275 2.15E+02
4.2817721 2.14E+02
4.2852163 2.09E+02
4.2886605 2.06E+02
4.2921047 2.08E+02
4.2955494 2.16E+02
4.2989936 2.14E+02
4.3024378 2.14E+02
4.3058825 2.10E+02
4.3093266 2.07E+02
4.3127713 2.08E+02
4.316215 2.14E+02
4.3196597 2.10E+02
4.3231039 2.09E+02
4.3265486 2.09E+02
4.3299928 2.07E+02
4.3334374 2.07E+02
4.3368812 2.06E+02
4.3403258 2.07E+02
4.34377 2.08E+02
4.3472147 2.08E+02
4.3506589 2.11E+02
4.3541036 2.10E+02
4.3575478 2.12E+02
4.360992 2.14E+02
4.3644361 2.14E+02
4.3678808 2.11E+02
4.371325 2.11E+02
4.3747692 2.10E+02
4.3782139 2.07E+02
4.3816581 2.08E+02
4.3851023 2.07E+02
4.3885469 2.07E+02
4.3919911 2.05E+02
4.3954358 2.05E+02
4.39888 2.07E+02
4.4023247 2.07E+02
4.4057684 2.09E+02
4.4092131 2.11E+02
4.4126573 2.09E+02
4.4161019 2.09E+02
4.4195461 2.09E+02
4.4229903 2.08E+02
4.426435 2.03E+02
4.4298792 2.10E+02
4.4333234 2.10E+02
4.4367676 2.05E+02
4.4402122 2.02E+02
4.4436564 2.00E+02
4.4471011 2.02E+02
4.4505448 2.05E+02
4.4539895 2.05E+02
4.4574337 2.09E+02
4.4608784 2.11E+02
4.464323 2.09E+02
4.4677672 2.06E+02
4.4712114 2.03E+02
4.4746556 2.01E+02
4.4781003 1.95E+02
4.4815445 1.96E+02
4.4849887 2.02E+02
4.4884334 2.05E+02
4.4918776 2.09E+02
4.4953218 2.14E+02
4.4987659 2.12E+02
4.5022106 2.10E+02
4.5056548 2.13E+02
4.5090995 2.14E+02
4.5125437 2.14E+02
4.5159883 2.11E+02
4.5194321 2.08E+02
4.5228767 2.05E+02
4.5263209 2.08E+02
4.5297656 2.09E+02
4.5332098 2.04E+02
4.5366545 2.01E+02
4.5400987 2.06E+02
4.5435429 2.13E+02
4.5469871 2.13E+02
4.5504317 2.10E+02
4.5538759 2.09E+02
4.5573201 2.06E+02
4.5607648 2.02E+02
4.564209 2.03E+02
4.5676532 2.05E+02
4.5710974 2.08E+02
4.574542 2.05E+02
4.5779867 2.01E+02
4.5814309 2.04E+02
4.5848756 2.05E+02
4.5883193 2.07E+02
4.591764 2.09E+02
4.5952082 2.11E+02
4.5986528 2.10E+02
4.602097 2.09E+02
4.6055412 2.09E+02
4.6089854 2.09E+02
4.6124301 2.08E+02
4.6158743 2.07E+02
4.6193185 2.08E+02
4.6227627 2.13E+02
4.6262074 2.16E+02
4.6296515 2.12E+02
4.6330957 2.12E+02
4.6365404 2.16E+02
4.6399846 2.17E+02
4.6434293 2.18E+02
4.6468735 2.22E+02
4.6503181 2.31E+02
4.6537619 2.48E+02
4.6572065 2.71E+02
4.6606507 3.09E+02
4.6640954 3.68E+02
4.6675391 4.55E+02
4.6709843 5.47E+02
4.6744285 6.38E+02
4.6778727 7.13E+02
4.6813169 7.56E+02
4.6847615 7.64E+02
4.6882057 7.48E+02
4.6916499 6.98E+02
4.6950946 6.40E+02
4.6985388 5.83E+02
4.701983 5.26E+02
4.7054272 4.81E+02
4.7088718 4.47E+02
4.7123165 4.18E+02
4.7157602 4.13E+02
4.7192054 4.29E+02
4.7226491 4.65E+02
4.7260938 5.18E+02
4.729538 5.61E+02
4.7329826 5.80E+02
4.7364264 5.65E+02
4.739871 5.19E+02
4.7433152 4.45E+02
4.7467599 3.68E+02
4.7502041 3.13E+02
4.7536483 2.73E+02
4.757093 2.46E+02
4.7605371 2.34E+02
4.7639813 2.33E+02
4.7674255 2.26E+02
4.7708702 2.22E+02
4.7743144 2.23E+02
4.7777591 2.15E+02
4.7812028 2.13E+02
4.7846475 2.16E+02
4.7880921 2.18E+02
4.7915363 2.16E+02
4.794981 2.11E+02
4.7984252 2.08E+02
4.8018694 2.06E+02
4.8053136 2.09E+02
4.8087583 2.09E+02
4.8122025 2.08E+02
4.8156466 2.07E+02
4.8190908 2.07E+02
4.8225355 2.12E+02
4.8259802 2.14E+02
4.8294239 2.15E+02
4.8328686 2.11E+02
4.8363128 2.11E+02
4.8397574 2.12E+02
4.8432016 2.10E+02
4.8466463 2.10E+02
4.85009 2.12E+02
4.8535347 2.11E+02
4.8569789 2.09E+02
4.8604236 2.11E+02
4.8638678 2.12E+02
4.8673124 2.09E+02
4.8707566 2.06E+02
4.8742008 2.07E+02
4.877645 2.09E+02
4.8810897 2.08E+02
4.8845339 2.07E+02
4.8879781 2.09E+02
4.8914227 2.15E+02
4.8948669 2.27E+02
4.8983111 2.36E+02
4.9017553 2.45E+02
4.9052 2.53E+02
4.9086447 2.54E+02
4.9120889 2.47E+02
4.9155335 2.41E+02
4.9189773 2.36E+02
4.9224219 2.26E+02
4.9258661 2.23E+02
4.9293108 2.25E+02
4.932755 2.29E+02
4.9361992 2.26E+02
4.9396434 2.29E+02
4.9430881 2.36E+02
4.9465322 2.48E+02
4.9499764 2.65E+02
4.9534211 2.93E+02
4.9568653 3.24E+02
4.96031 3.58E+02
4.9637537 3.93E+02
4.9671984 4.13E+02
4.9706426 4.23E+02
4.9740872 4.18E+02
4.9775314 4.09E+02
4.9809761 3.89E+02
4.9844203 3.62E+02
4.9878645 3.39E+02
4.9913092 3.23E+02
4.9947534 3.11E+02
4.9981976 3.04E+02
5.0016422 2.98E+02
5.0050864 3.02E+02
5.0085306 3.02E+02
5.0119748 3.01E+02
5.015419 2.92E+02
5.0188637 2.82E+02
5.0223083 2.75E+02
5.0257525 2.60E+02
5.0291972 2.45E+02
5.0326409 2.30E+02
5.0360856 2.20E+02
5.0395298 2.18E+02
5.0429745 2.17E+02
5.0464187 2.17E+02
5.0498633 2.17E+02
5.0533071 2.14E+02
5.0567517 2.12E+02
5.0601959 2.11E+02
5.0636406 2.13E+02
5.0670848 2.12E+02
5.070529 2.11E+02
5.0739737 2.13E+02
5.0774179 2.10E+02
5.080862 2.13E+02
5.0843062 2.12E+02
5.0877509 2.10E+02
5.0911951 2.10E+02
5.0946398 2.06E+02
5.098084 2.04E+02
5.1015282 2.05E+02
5.1049728 2.07E+02
5.1084166 2.06E+02
5.1118617 2.08E+02
5.1153059 2.08E+02
5.1187501 2.07E+02
5.1221943 2.07E+02
5.125639 2.09E+02
5.1290827 2.05E+02
5.1325274 2.06E+02
5.1359715 2.08E+02
5.1394162 2.08E+02
5.1428609 2.07E+02
